{
  "resourceType": "Bundle",
  "id": "920a46b7-045a-4773-82bd-8e90c3e15653",
  "type": "subscription-notification",
  "timestamp": "2020-04-17T10:24:13.1882432-05:00",
  "entry": [
    {
      "fullUrl": "urn:uuid:dae6bdbc-71ab-4043-b11e-59b52bda60ad",
      "resource": {
        "resourceType": "SubscriptionStatus",
        "id": "dae6bdbc-71ab-4043-b11e-59b52bda60ad",
        "text": {
          "status": "generated",
          "div": "\u003cdiv xmlns\u003d\"http://www.w3.org/1999/xhtml\"\u003e\u003cp class\u003d\"res-header-id\"\u003e\u003cb\u003eGenerated Narrative: SubscriptionStatus dae6bdbc-71ab-4043-b11e-59b52bda60ad\u003c/b\u003e\u003c/p\u003e\u003ca name\u003d\"dae6bdbc-71ab-4043-b11e-59b52bda60ad\"\u003e \u003c/a\u003e\u003ca name\u003d\"hcdae6bdbc-71ab-4043-b11e-59b52bda60ad\"\u003e \u003c/a\u003e\u003cp\u003e\u003cb\u003estatus\u003c/b\u003e: Active\u003c/p\u003e\u003cp\u003e\u003cb\u003etype\u003c/b\u003e: Event Notification\u003c/p\u003e\u003cp\u003e\u003cb\u003eeventsSinceSubscriptionStart\u003c/b\u003e: 2\u003c/p\u003e\u003cblockquote\u003e\u003cp\u003e\u003cb\u003enotificationEvent\u003c/b\u003e\u003c/p\u003e\u003cp\u003e\u003cb\u003eeventNumber\u003c/b\u003e: 2\u003c/p\u003e\u003cp\u003e\u003cb\u003efocus\u003c/b\u003e: \u003ca href\u003d\"broken-link.html\"\u003ehttp://example.org/FHIR/R5/Encounter/2\u003c/a\u003e\u003c/p\u003e\u003cp\u003e\u003cb\u003eadditionalContext\u003c/b\u003e: \u003ca href\u003d\"broken-link.html\"\u003ehttp://example.org/FHIR/R5/Patient/ABC\u003c/a\u003e\u003c/p\u003e\u003cblockquote\u003e\u003cp\u003e\u003cb\u003erelatedQuery\u003c/b\u003e\u003c/p\u003e\u003cp\u003e\u003cb\u003equeryType\u003c/b\u003e: [not stated] \u003c/p\u003e\u003cp\u003e\u003cb\u003equery\u003c/b\u003e: Patient?_id\u003dABC\u0026amp;_include:iterate\u003dPatient:link\u003c/p\u003e\u003c/blockquote\u003e\u003cblockquote\u003e\u003cp\u003e\u003cb\u003erelatedQuery\u003c/b\u003e\u003c/p\u003e\u003cp\u003e\u003cb\u003equeryType\u003c/b\u003e: [not stated] \u003c/p\u003e\u003cp\u003e\u003cb\u003equery\u003c/b\u003e: Patient/ABC$current-providers\u003c/p\u003e\u003c/blockquote\u003e\u003c/blockquote\u003e\u003cp\u003e\u003cb\u003esubscription\u003c/b\u003e: \u003ca href\u003d\"broken-link.html\"\u003ehttp://example.org/FHIR/R5/Subscription/123\u003c/a\u003e\u003c/p\u003e\u003cp\u003e\u003cb\u003etopic\u003c/b\u003e: \u003ca href\u003d\"broken-link.html\"\u003ehttp://example.org/FHIR/R5/SubscriptionTopic/admission\u003c/a\u003e\u003c/p\u003e\u003c/div\u003e"
        },
        "status": "active",
        "type": "event-notification",
        "eventsSinceSubscriptionStart": "2",
        "notificationEvent": [
          {
            "eventNumber": "2",
            "focus": {
              "reference": "http://example.org/FHIR/R5/Encounter/2"
            },
            "additionalContext": [
              {
                "reference": "http://example.org/FHIR/R5/Patient/ABC"
              }
            ],
            "relatedQuery": [
              {
                "query": "Patient?_id\u003dABC\u0026_include:iterate\u003dPatient:link"
              },
              {
                "query": "Patient/ABC$current-providers"
              }
            ]
          }
        ],
        "subscription": {
          "reference": "http://example.org/FHIR/R5/Subscription/123"
        },
        "topic": "http://example.org/FHIR/R5/SubscriptionTopic/admission"
      }
    },
    {
      "fullUrl": "http://example.org/FHIR/R5/Encounter/2",
      "request": {
        "method": "PUT",
        "url": "Encounter/2"
      },
      "response": {
        "status": "201"
      }
    },
    {
      "fullUrl": "http://example.org/FHIR/R5/Patient/ABC",
      "request": {
        "method": "GET",
        "url": "Patient/ABC"
      },
      "response": {
        "status": "200"
      }
    }
  ],
  "meta": {
    "tag": [
      {
        "system": "http://terminology.hl7.org/CodeSystem/v3-ActReason",
        "code": "HTEST",
        "display": "test health data"
      }
    ]
  }
}